timestamp,lin_acc_x,lin_acc_y,lin_acc_z
1523292623179,0.8739792,5.629181,-0.67403316
1523292623184,1.8573976,-7.402459,-8.515642
1523292623200,1.7897613,-3.9398448,-7.5519757
1523292623218,-0.91269374,-0.30903816,-8.387552
1523292623221,-2.5311742,0.13448787,-10.15567
1523292623232,-0.1889714,1.5366205,-1.294322
1523292623249,-0.36426818,0.3700533,-1.036581
1523292623258,-0.3081169,-1.332314,-1.467773
1523292623280,-0.2518512,-0.15633595,0.5409956
1523292623308,-0.09937596,1.019967,1.9129858
1523292623313,-0.09777379,1.4226673,0.6103935
1523292623336,-0.00970161,0.79862046,-1.2021332
1523292623346,-0.23189962,1.0158794,2.2148867
1523292623372,0.65400386,0.055996418,3.381978
1523292623397,0.49835706,-1.6834099,1.1798534
1523292623429,-0.40692616,-1.5005937,-0.57104015
1523292623453,-0.1058141,0.19142449,0.15684128
1523292623478,-0.5386786,1.2243301,1.4094172
1523292623504,-1.6738998,-0.9009074,1.0295992
1523292623548,-1.0247173,-1.010647,-1.6764326
1523292623574,-0.99983263,0.8777951,-2.546142
1523292623594,-1.1287099,1.9368846,-2.666027
1523292623600,-1.0751641,1.9019008,-2.3686872
1523292623623,-1.2129117,0.7952111,-1.62363
1523292623638,-0.681716,1.3828263,-2.3503695
1523292623663,-0.086263195,1.1859119,-1.8612475
1523292623689,0.35379001,-1.0504072,0.63189125
1523292623715,0.07205805,-0.6288285,0.28224087
1523292623742,-0.71778864,0.29312825,2.3750792
1523292623758,-0.6615097,-0.08872819,1.8258438
1523292623787,-0.0044447333,-0.8882538,1.4810209
1523292623827,-0.0153322965,0.2653725,1.5672092
1523292623839,-1.3693386,-3.0457425,4.2566137
1523292623932,-1.2811981,-3.0504909,4.185029
1523292623941,-1.2796576,-2.4067323,2.331581
1523292623966,-1.162645,-2.4203246,0.71703625
1523292623994,-0.9187342,-2.7539804,0.47613907
1523292624007,-0.4363698,-3.1989727,1.9597645
1523292624034,-0.11999473,-2.9652586,2.1055222
1523292624055,-0.27603778,-2.716087,-0.025047302
1523292624079,-0.25901073,-2.6794655,-1.9819956
1523292624097,-0.8856841,-1.8937488,-2.2692995
1523292624112,-1.003284,-1.639869,-1.7674255
1523292624149,-0.79036814,-1.6201072,-1.4622989
1523292624153,-0.5028191,-1.7311101,-0.9738617
1523292624164,-0.88722235,-1.8129189,0.41120148
1523292624186,-0.9259606,-1.5007999,2.0832348
1523292624213,-0.59818006,-1.6632106,2.5771322
1523292624227,-0.52782744,-2.0922194,2.3520794
1523292624250,-0.77475774,-2.8232136,3.098465
1523292624280,-0.91085774,-1.7338679,3.306447
1523292624303,-1.1507053,-2.1946526,2.94312
1523292624333,-0.118947685,-3.6141334,4.166586
1523292624351,0.35319316,-3.4881802,4.051282
1523292624376,0.14126265,-2.176704,1.1792221
1523292624403,0.19691598,-2.562735,-0.457438
1523292624431,0.096912205,-3.4352686,0.8068266
1523292624450,-0.70950204,-3.069551,2.6035748
1523292624477,-1.2925717,-3.275011,1.8594103
1523292624492,-0.9544078,-3.5695605,0.7713547
1523292624520,-0.6651012,-2.422316,-2.1280608
1523292624543,-1.0911683,-1.9811141,-2.208972
1523292624558,-1.3043311,-1.227463,-1.9407625
1523292624579,-0.8787869,-2.5049484,-1.1979051
1523292624603,0.055799484,-2.255974,-1.6373386
1523292624618,-0.34640354,-2.252417,-1.1952276
1523292624648,-1.4697237,-0.97173977,0.94054604
1523292624671,-0.35913152,-2.2071512,1.197382
1523292624696,-0.7411438,-2.2919044,0.29024696
1523292624726,-1.126334,-1.6389642,1.2461729
1523292624751,-1.0918115,-2.7614644,3.6185155
1523292624780,-1.4719552,-1.5934482,5.4793015
1523292624809,-2.8004675,-1.3748441,4.645109
1523292624833,-2.6850617,-1.8992372,2.742979
1523292624859,-2.661059,-1.2262521,2.531197
1523292624876,-2.432227,-1.1193223,1.4055028
1523292624902,-2.9677448,-2.3969493,2.4172373
1523292624928,-2.1773713,-1.8392079,3.9645805
1523292624954,-1.2379497,-2.5208893,2.2666788
1523292624979,-0.35893357,-2.5558984,-0.0062007904
1523292625004,-0.9305465,-1.7269571,-1.2697158
1523292625029,-1.6509318,-1.1482611,-1.5567613
1523292625061,-1.890556,-0.8862374,-1.7871995
1523292625258,-1.1649725,-0.76281786,-1.4429116
1523292625264,-1.173874,-1.3577108,0.11125088
1523292625270,-1.2086194,-1.7232842,0.8800993
1523292625276,-1.310255,-1.0527208,1.2067375
1523292625280,-0.76015234,-1.4641838,0.74201775
1523292625286,-0.532501,-2.3928075,1.2701597
1523292625322,-0.27889287,-1.0715036,2.0599098
1523292625338,0.5776048,-3.814701,3.4817133
1523292625388,0.7669064,-2.6204634,1.9965878
1523292625423,0.11791909,-1.9804369,0.46195316
1523292625429,-0.23571837,-1.6159904,-0.083621025
1523292625434,-0.13589525,-2.1551542,0.10562706
1523292625438,-0.7094255,-2.4257412,1.6404238
1523292625469,-1.0496389,-2.372272,1.4401884
1523292625531,-1.0804878,-1.9187442,-0.8932924
1523292625537,-1.2222468,-1.3383744,-1.9122157
1523292625572,-1.0879362,-1.0543594,-1.499145
1523292625590,-0.61157745,-1.1342382,-1.3232698
1523292625628,-0.3577357,-1.2858717,-1.1785483
1523292625637,-0.25985062,-1.6174068,0.64640427
1523292625661,-0.39280295,-1.4663227,1.2657461
1523292625687,-0.559961,-1.5600355,1.5891857
1523292625717,-1.0647334,-1.6921792,1.5494051
1523292625722,-0.9666971,-2.482494,2.0896425
1523292625750,-1.2499354,-1.0028243,2.154109
1523292625780,-2.1110964,-1.8733878,3.2406502
1523292625801,-1.5349376,-2.6409912,4.201288
1523292625830,-1.1050422,-2.015911,3.0824099
1523292625851,-1.1979276,-1.2752945,0.5611944
1523292625879,-0.9227464,-1.8262463,0.3479929
1523292625900,-0.68937474,-2.4845448,0.68810654
1523292625937,-0.61804116,-2.3956282,0.40159225
1523292625963,-0.774143,-2.0460653,-0.017107964
1523292625975,-0.70566535,-1.8471313,-1.2256646
1523292626001,-0.80940676,-1.273237,-1.8728356
1523292626029,-0.89391387,-0.8757372,-2.2130532
1523292626062,-0.9899085,-0.8734057,-1.252151
1523292626077,-0.89089966,-1.1460781,-0.14601612
1523292626102,-0.62910724,-1.3857319,0.52506447
1523292626130,-0.83468,-1.0291436,1.0480976
1523292626161,-0.9308405,-0.40919352,1.5722437
1523292626201,-0.41009235,-1.1281655,1.5625381
1523292626206,0.11722469,-2.704903,2.1848955
1523292626233,-0.13423002,-0.5492077,1.494379
1523292626263,-0.27238023,-1.5322442,1.4712362
1523292626296,0.713948,-2.6405394,2.0670576
1523292626305,0.54430366,-1.4097317,1.7526302
1523292626332,-0.04261613,-0.1906414,-0.18753815
1523292626361,-0.36329007,-1.0428606,-0.3213129
1523292626395,-0.23225296,-2.5177374,1.5850458
1523292626430,-0.50147223,-2.3494391,1.0060043
1523292626468,-1.4195361,-1.5542223,-0.31450176
1523292626473,-1.0918287,-1.0973969,-0.89024067
1523292626497,-0.79331183,-0.8917234,-0.70265007
1523292626528,-0.5354112,-1.0627465,-1.0555763
1523292626561,-0.40987486,-0.7250712,-1.7624197
1523292626569,-0.44046545,-0.81083584,-0.5746126
1523292626602,-0.45140028,-0.8959961,0.42389774
1523292626648,-0.30773932,-0.7453153,1.1636219
1523292626658,-0.4210856,-0.53916335,1.1146698
1523292626700,-0.34695423,-0.69099164,0.40204334
1523292626727,-0.33151352,-1.3717217,1.7466345
1523292626779,-0.23965895,-0.40625477,2.711216
1523292626787,-0.9207969,-0.69581246,2.5826359
1523292626798,-0.46831048,-1.4704375,2.4124231
1523292626843,-0.77254975,-1.2169464,1.5738611
1523292626850,-1.306244,-0.33884788,-0.0015821457
1523292626857,-1.359855,-0.13701439,-1.0170221
1523292626901,-0.96728694,-0.8894279,-1.1546488
1523292626911,-0.61646044,-1.8860091,0.050497055
1523292626958,-0.619452,-1.6160848,0.8597889
1523292626963,-0.7990781,-1.3561926,0.77877426
1523292627028,-0.6896461,-1.032788,-0.59953976
1523292627031,-0.45731074,-1.0277464,-1.5814443
1523292627092,-0.42879313,-0.56588745,-1.1776819
1523292627101,-0.47158617,-0.2728939,-0.67825603
1523292627108,-0.58743197,-0.3808446,0.15604973
1523292627113,-0.6431356,-0.059220314,0.6954689
1523292627159,-0.761429,-0.026916027,0.96001244
1523292627164,-0.87588173,-0.042295456,1.1407747
1523292627218,-0.6448784,-0.7215929,1.2923565
1523292627226,0.0949018,-0.67849827,2.0782957
1523292627273,-0.005383849,0.7929623,1.5239086
1523292627278,-0.054010987,-0.63786125,1.3105984
1523292627296,0.58868456,-1.9200329,1.5418339
1523292627355,0.55237675,-1.2566735,1.3972092
1523292627361,-0.11804664,0.09720731,-0.65123653
1523292627366,-0.14224625,-0.090973616,-1.3515501
1523292627413,0.17291617,-1.4568323,-0.03599739
1523292627419,-0.19980621,-1.7634052,1.3727655
1523292627476,-0.59986335,-1.4665489,1.373847
1523292627481,-0.83823496,-1.1518402,0.019493103
1523292627488,-0.73358965,-0.64914227,-1.4428754
1523292627535,-0.57851666,-0.1621387,-2.3149195
1523292627544,-0.3327297,0.15217328,-2.2991662
1523292627615,0.03978692,0.10645604,-1.37995
1523292627623,-0.11937919,-0.39122653,0.018173218
1523292627626,-0.22628039,-0.47966766,1.286459
1523292627673,-0.3087598,-0.072300196,1.299757
1523292627677,-0.4082812,-0.086640835,1.5413542
1523292627726,-0.27907842,-0.47050214,1.6063395
1523292627736,0.019808054,-0.7759006,1.9823608
1523292627785,-0.8452648,0.49165726,1.7701521
1523292627788,-0.5902709,-0.9925184,1.8724499
1523292627848,-0.32402837,-1.3074346,2.4527702
1523292627855,-1.1951238,-0.35870004,1.3781033
1523292627876,-1.7893757,0.27599573,-0.60630226
1523292627922,-1.3948922,0.10958171,-1.3011222
1523292627926,-0.47785866,-0.81703687,-0.82874584
1523292627932,-0.064863384,-1.174963,0.36534786
1523292627979,-0.07298607,-1.1933141,0.75392914
1523292627988,-0.11560519,-0.9293208,-0.29550552
1523292628036,-0.10096574,-0.5104923,-1.7769384
1523292628043,0.036028087,-0.7518189,-1.9852033
1523292628060,0.0691843,-0.3329594,-1.5780759
1523292628106,-0.35294592,-0.40109658,-0.4261484
1523292628127,-0.27582175,0.09924364,0.121920586
1523292628142,-0.020861447,0.043797493,-0.12637424
1523292628189,-0.1623865,0.28821015,0.22718716
1523292628194,-0.34225813,0.19472933,1.1111355
1523292628203,-0.46804708,-0.40720415,1.9096689
1523292628263,0.105968475,-0.43227792,2.0826416
1523292628270,-0.13874859,1.2638791,1.1945896
1523292628321,0.45914817,-0.5284219,1.6911774
1523292628328,0.8148618,-0.9816668,2.9844952
1523292628334,0.9458182,-0.43137026,1.9836311
1523292628385,1.0230861,0.062222958,-0.737669
1523292628409,0.9701162,-0.917166,-1.1427097
1523292628414,0.7757363,-1.7406937,0.7504177
1523292628473,0.10820699,-1.3602041,1.396924
1523292628482,-0.22866577,-1.1627536,0.31679535
1523292628490,-0.4457429,-0.71186256,-1.2840481
1523292628537,-0.39958724,-0.21260142,-2.5601153
1523292628543,-0.29215455,0.3431883,-2.9050088
1523292628552,-0.17838906,0.51990914,-2.4116359
1523292628600,-0.09776351,-0.023670197,-0.8008127
1523292628604,0.03500408,-0.36710167,0.7121706
1523292628654,0.1087468,4.6491623E-4,0.7661915
1523292628660,0.124896884,0.6543813,0.16085815
1523292628737,0.0058048964,0.398947,-0.20516968
1523292628743,-0.4097361,-0.47975278,0.89704704
1523292628749,-0.14481914,-1.0414047,2.091282
1523292628798,-0.040295124,0.78303957,1.7435284
1523292628803,-0.6848731,1.0371342,0.3459692
1523292628812,-0.16846621,0.13401341,1.5303164
1523292628863,-0.8077639,-0.07832503,2.4598045
1523292628868,-0.973808,0.30636048,1.6321259
1523292628874,-0.5732228,-0.26835608,0.90740395
1523292628925,0.05301466,-1.1343039,1.8202543
1523292628942,0.31531107,-1.1027666,1.6841421
1523292629007,0.34235466,-0.80355406,0.095892906
1523292629012,0.37626964,-0.5620403,-1.8033705
1523292629020,0.4247534,-0.31989574,-2.6291046
1523292629028,0.2730038,0.03399229,-2.716486
1523292629075,0.03875959,0.5158036,-2.4977875
1523292629081,-0.16584776,0.5484867,-1.7161927
1523292629141,-0.07637629,0.123667,-1.1117764
1523292629146,-0.2952041,0.328413,-0.07987881
1523292629150,-0.4317314,0.6464269,0.25735855
1523292629186,-0.20614788,0.52765465,0.34255695
1523292629221,0.1723609,-0.41439843,1.3000736
1523292629267,0.31826663,-0.4965098,2.2393293
1523292629276,0.3950215,1.3100061,0.86739254
1523292629319,0.3890931,0.28744888,-0.12372017
1523292629328,0.863015,-1.3646754,1.8459492
1523292629379,0.98608017,-0.8768871,1.8662968
1523292629383,0.47507477,-0.10212517,0.11950207
1523292629393,0.34198815,0.50939417,-1.2533293
1523292629441,0.26050258,0.063186646,-0.91570187
1523292629445,0.050846577,-0.8083594,0.8878889
1523292629452,-0.23403613,-1.1368357,1.7574024
1523292629515,-0.27782217,-0.67780757,0.88789177
1523292629578,-0.53349113,-0.27397776,-0.670599
1523292629585,-0.62597704,-0.11174798,-2.1278133
1523292629592,-0.42753407,0.47824717,-2.6137924
1523292629596,-0.16004285,0.81158066,-2.0382466
1523292629642,-0.08699036,0.67247486,-1.0196562
1523292629646,0.02649802,0.23074746,-0.08762455
1523292629694,0.25382262,0.0013768673,0.6401596
1523292629704,0.13239312,0.5994532,0.79225445
1523292629753,0.17679787,1.0190046,0.35211754
1523292629757,0.28053653,0.06948662,0.23894787
1523292629776,0.22144055,-0.59990704,0.055454254
1523292629834,-0.44227982,1.4891357,0.9515486
1523292629839,-0.37265873,0.047784805,0.9329519
1523292629889,-0.055490255,-0.9864421,2.5947552
1523292629897,-0.5139352,0.15390396,1.5100508
1523292629901,-0.8641695,0.7460289,-0.6824198
1523292629948,-0.9812528,0.43064666,-1.1566086
1523292629957,-0.74404174,-0.6255996,0.010820389
1523292629961,-0.5678874,-1.1877638,2.0069437
1523292630008,-0.4606883,-0.9223981,1.8390808
1523292630026,-0.12199274,-0.68866324,0.21460342
1523292630085,0.21703425,-0.26822376,-1.4229898
1523292630089,0.18014885,0.22484946,-2.490664
1523292630097,0.059782207,0.7287886,-2.5865889
1523292630147,-0.16546947,0.99294066,-1.673162
1523292630151,-0.24214578,0.64071155,-0.54321957
1523292630198,-0.2777862,0.5814991,-0.51927567
1523292630201,-0.35777986,0.6620698,-0.086037636
1523292630213,-0.4339944,1.2131858,0.66539764
1523292630275,-0.15530539,0.39373064,0.6303005
1523292630285,0.5792626,-0.515723,1.7984486
1523292630359,0.59936154,1.0213776,2.2227497
1523292630364,0.6990087,0.57873774,1.6070881
1523292630371,1.3389642,-0.7007295,2.497755
1523292630375,1.3572319,-1.1099021,2.6309671
1523292630432,1.0977005,-0.025783777,0.70434475
1523292630437,0.81368995,0.7211814,-1.2794819
1523292630486,0.83797634,0.15350437,-1.7361269
1523292630490,0.56657135,-0.64203155,0.4866867
1523292630500,0.21566129,-0.7167773,1.4487104
1523292630548,0.03812194,-0.3259182,0.5425968
1523292630566,-0.09090549,-0.17681599,-0.93944454
1523292630626,-0.051610112,0.031131268,-1.9934659
1523292630631,0.070846856,0.54644895,-2.3410816
1523292630638,0.09037322,0.8812659,-2.2177744
1523292630689,0.15504318,0.6500554,-1.7238622
1523292630695,0.22862044,0.56778264,-0.7678251
1523292630701,0.35215822,0.55499196,0.15686989
1523292630749,0.49502638,0.53333163,0.2738905
1523292630756,0.4507761,0.80545735,0.5456171
1523292630807,0.18148142,0.33713388,0.8437166
1523292630813,0.18973505,-0.58792615,1.4976492
1523292630882,0.27316654,-0.13915634,1.9903355
1523292630890,-0.9428612,1.257946,0.9824171
1523292630896,-0.9320837,0.01286602,0.95273685
1523292630941,-1.0780201,-0.31081915,1.6157951
1523292630945,-0.90041155,-0.060884714,0.79059315
1523292630992,-0.44554663,0.29302573,-0.15244961
1523292630996,-0.20679379,0.2225728,-0.36553955
1523292631044,0.20399095,-0.6867938,0.46699238
1523292631048,0.18642123,-0.77458656,1.1238537
1523292631057,0.15547256,-0.47608256,0.4968624
1523292631114,0.050274335,-0.1012671,-1.3549404
1523292631131,-0.025053993,0.3632717,-2.7711568
1523292631182,-0.12933019,0.66905904,-2.8215985
1523292631186,-0.1609595,0.70997715,-1.9345822
1523292631194,0.0735693,0.66018414,-1.034647
1523292631241,0.17204314,0.6176882,-0.77294827
1523292631247,0.045550585,0.67948675,-0.30184746
1523292631252,0.13901615,0.6860211,0.21823406
1523292631311,0.2526772,0.1821127,1.4392319
1523292631316,0.5177595,-0.5420804,2.1241026
1523292631365,0.5223649,1.0329084,1.5012951
1523292631373,0.37513286,0.92790484,1.3134651
1523292631446,1.1996303,-0.75050914,2.7191954
1523292631451,1.2794341,-1.1772786,3.828538
1523292631460,1.3341835,-0.14905167,1.4289427
1523292631464,1.1498284,0.8231981,-1.2663097
1523292631512,1.0592523,0.5207896,-1.6254106
1523292631516,0.8938753,-0.79673576,0.4252901
1523292631564,0.32040673,-0.8361423,1.421978
1523292631574,-0.072257996,-0.40676355,0.11503124
1523292631617,-0.3195634,0.028268337,-1.5562329
1523292631626,-0.17760536,0.29889035,-2.6055808
1523292631701,-0.010844111,0.4571073,-2.5440693
1523292631705,0.039836228,0.79928637,-2.1209617
1523292631711,0.12979424,0.9490597,-1.6377411
1523292631718,0.3495143,0.405679,-0.7199516
1523292631767,0.6630974,0.19891334,0.4156084
1523292631775,0.58050996,0.80674314,0.8453493
1523292631820,0.26580435,0.9888804,0.45838165
1523292631828,-0.04586494,0.34765267,0.7788458
1523292631837,0.059386432,-0.03474641,1.64217
1523292631885,-0.37415388,1.7102835,1.5266733
1523292631903,-0.59059846,0.346591,1.5855551
1523292631965,-0.5014328,-1.1943749,2.5094433
1523292631974,-0.894314,-0.19538784,1.9256172
1523292631978,-0.90686774,0.39979458,-0.23229885
1523292632021,-0.549527,0.37510514,-1.283001
1523292632027,-0.18703905,-0.56186175,0.2740116
1523292632031,-0.0064365864,-0.94452786,1.099968
1523292632079,-0.008510351,-0.76153064,0.47236538
1523292632089,0.050735027,-0.23883891,-1.1362591
1523292632130,0.065648615,0.16286302,-2.660411
1523292632139,0.04743129,0.26558733,-2.9028168
1523292632214,0.0034451783,0.4938078,-2.2092896
1523292632219,-0.0047715306,0.6908839,-1.5313292
1523292632225,-0.0067129433,0.6602824,-1.0572376
1523292632276,-0.079257876,0.7034774,-0.6236658
1523292632281,-0.4875924,1.0382276,-0.20750332
1523292632288,-0.38218758,1.0534432,0.4631529
1523292632350,-0.08496046,0.35463643,1.6044455
1523292632355,0.03922528,-0.17738128,2.0264254
1523292632361,0.3207464,1.176343,1.6004143
1523292632412,0.54372334,1.2620273,1.0538197
1523292632436,1.2182434,-0.5345874,2.0654974
1523292632496,0.9707736,-1.1071523,3.1253157
1523292632501,0.89545244,-0.48007226,0.9310732
1523292632506,1.2905581,0.6393156,-0.8412342
1523292632618,1.3220718,-0.062948465,-1.085474
