timestamp,gyro_x,gyro_y,gyro_z
1523293275550,0.006924219,-0.0026631611,-0.021837922
1523293275701,1.6096146,0.84422207,1.5792545
1523293275737,1.6668725,1.0327739,1.4367754
1523293275770,1.6101472,1.230913,1.0343717
1523293275775,1.6567526,0.6221144,0.93130744
1523293275816,1.6700684,0.29028457,1.045557
1523293275850,1.3558153,0.5267733,1.0684602
1523293275856,0.7635283,0.6215818,0.9510148
1523293275887,0.63037026,0.8149273,0.8905611
1523293275921,0.13129385,0.6087986,0.82850945
1523293275925,0.05752428,-0.08149273,0.7640609
1523293275959,-0.56618804,0.5400891,0.055127434
1523293275966,-1.438107,0.41864893,-0.8633968
1523293276000,-1.8844528,0.38242993,-1.4341123
1523293276031,-2.001632,-0.08468852,-2.0769994
1523293276035,-2.1648836,-1.7060211,-2.2857912
1523293276078,-2.957973,-0.6780408,-2.431466
1523293276116,-2.9236183,-0.48469532,-2.3776703
1523293276122,-2.656237,0.72970617,-2.0146813
1523293276154,-2.0431771,-0.33076462,-2.301504
1523293276188,-1.5451661,-1.6682042,-2.4530377
1523293276192,-1.1297129,-2.8336034,-2.141714
1523293276230,-0.819721,-2.8117654,-1.2926984
1523293276236,-0.267914,-2.1827269,-0.6213155
1523293276267,0.32597092,-1.3241237,0.09347696
1523293276302,1.1419635,-0.83037364,0.78296936
1523293276345,2.209891,-0.89322424,0.95208013
1523293276351,1.8623486,-0.105993815,0.65034395
1523293276389,0.31025827,-1.4002901,-0.1222391
1523293276395,-0.08495484,-0.71159667,-0.5866944
1523293276434,0.60427123,-0.53955644,-0.9715212
1523293276441,-0.0127831735,0.8085357,-0.5438175
1523293276481,0.9518138,2.5305357,0.6317018
1523293276523,0.09134643,-0.7281082,0.47297743
1523293276530,-0.20559604,1.7134778,0.51984906
1523293276570,1.4160028,4.675978,1.4064153
1523293276574,1.8426412,1.1691277,1.7198695
1523293276618,1.4074807,-0.41438788,1.067395
1523293276636,1.6245283,0.6018744,0.8002799
1523293276693,1.5230619,1.1659319,1.6311862
1523293276697,1.459146,1.2245215,1.6660736
1523293276707,1.5739282,1.2495552,1.4346449
1523293276745,1.5608788,0.87032104,1.2895026
1523293276752,1.4804512,0.06551377,1.303351
1523293276795,1.4168017,0.36485308,1.3608754
1523293276802,0.72171664,0.8319715,0.9438243
1523293276860,0.67191553,1.0865698,0.5605954
1523293276869,0.049534798,0.7440872,0.68816084
1523293276921,0.047137953,0.3653857,0.91852427
1523293276935,-0.13262543,0.50120693,0.11451593
1523293276987,-0.85727155,0.47031426,-0.60267335
1523293276990,-1.6144083,-0.07403588,-1.4580808
1523293276998,-1.9286613,0.27004454,-2.0634172
1523293277002,-1.9393139,-2.1358552,-2.154231
1523293277047,-2.8378644,-0.9502159,-2.2618227
1523293277051,-2.962767,-1.0343717,-2.3172164
1523293277092,-2.7310717,0.35952675,-1.9102855
1523293277099,-2.2000375,0.25406557,-2.0961742
1523293277140,-1.8021611,-0.7456851,-2.4964473
1523293277150,-1.5145397,-2.1214743,-2.2130868
1523293277217,-1.2104068,-2.6589,-1.4183996
1523293277223,-0.5238438,-2.5102956,-0.7395598
1523293277230,0.06258429,-2.0149477,-0.19920446
1523293277272,0.7435546,-1.3438311,0.30333406
1523293277276,1.9457055,-0.89588743,0.8005462
1523293277321,2.4727452,-0.64182186,0.78083885
1523293277324,0.7235809,0.2034655,0.08495484
1523293277368,-0.19973709,-1.5078819,-0.8495484
1523293277371,0.16085494,-0.8005462,-1.2652678
1523293277422,0.47510794,-0.68656296,-0.84155893
1523293277434,0.015446335,1.8615496,-0.350472
1523293277478,1.1800467,1.3763217,0.05139901
1523293277484,-0.56751966,-0.5273059,0.34967306
1523293277524,0.02609898,4.922587,0.9254485
1523293277531,2.0245352,3.8008635,1.9078887
1523293277569,1.2362394,-0.35420042,2.0407803
1523293277575,1.2407668,0.16192019,1.1241204
1523293277609,1.4695324,0.799481,1.4674017
1523293277619,1.4764565,2.1017668,2.0335898
1523293277652,1.5709988,1.3118732,1.6652746
1523293277690,1.7299895,1.4072144,1.3840449
1523293277745,1.7180053,0.99495703,1.33957
1523293277749,1.660481,-0.027164243,1.5166702
1523293277752,1.2844427,0.15659387,1.602424
1523293277785,0.43755737,1.149953,0.90467584
1523293277819,0.35579833,0.93157375,0.67271453
1523293277824,-0.14088123,0.7137272,0.9020127
1523293277854,-7.9894834E-4,0.37390783,0.8625979
1523293277887,-0.11797804,0.40373522,0.40852892
1523293277892,-0.69055766,0.011185277,-0.3139867
1523293277926,-1.2969595,-0.53795856,-1.4937671
1523293277975,-1.9198729,0.41385525,-2.4644892
1523293277981,-1.9563582,-1.7923075,-2.2841933
1523293277985,-2.572081,-0.69668293,-2.4687505
1523293278020,-2.912433,0.1438107,-2.8133633
1523293278051,-2.705239,0.43356264,-2.3755398
1523293278082,-2.1153488,-0.17736652,-2.4999094
1523293278087,-1.6961673,-1.3630059,-2.583
1523293278120,-1.3148026,-2.6860642,-2.2708776
1523293278154,-0.87804425,-2.988067,-1.6729978
1523293278164,-0.15606125,-2.6802053,-1.0322412
1523293278211,0.27350664,-2.0197413,-0.345412
1523293278217,0.92464954,-1.3081448,0.35233623
1523293278247,2.0679445,-0.74302197,0.96566224
1523293278281,2.5718148,-0.14753912,0.93929696
1523293278317,0.9369001,0.2396845,0.5608617
1523293278322,-0.08841695,-1.6772588,-0.38802257
1523293278355,0.054328486,-0.43782368,-0.9257148
1523293278364,0.19760656,-0.8426242,-0.59761333
1523293278400,-0.4111921,2.3318639,-0.22370553
1523293278441,0.917459,1.2175972,0.66365975
1523293278449,0.15153387,-0.35633096,0.2876214
1523293278493,0.0628506,3.310842,0.87990844
1523293278499,1.8325212,3.94787,1.5984293
1523293278536,1.3478259,0.4346279,1.887116
1523293278540,1.2703278,0.03834952,1.1848404
1523293278585,1.5041534,0.67697555,1.2831111
1523293278590,1.5507587,1.1547467,1.7230653
1523293278637,1.6261262,1.0040118,1.5630093
1523293278644,1.6410398,0.73290193,1.4365091
1523293278685,1.6037556,0.6412892,1.3424995
1523293278692,1.6314526,-0.026631612,1.4567492
1523293278751,1.8394454,0.024501082,1.6096146
1523293278758,1.0223875,0.624245,1.3885722
1523293278761,0.66206187,1.4002901,0.7307714
1523293278806,-0.11105382,1.3230585,0.81918836
1523293278810,-0.14247912,0.7073356,1.1430287
1523293278855,-0.14274544,0.46711847,0.15978967
1523293278860,-0.55074173,0.07084008,-0.4708469
1523293278917,-1.3257216,-0.49534798,-1.72706
1523293278923,-1.7140105,-0.07243799,-2.4327977
1523293278966,-1.8194717,-0.6689861,-2.4695494
1523293278987,-2.4964473,-0.98590225,-2.177667
1523293279036,-3.0812774,-0.2593919,-2.6820695
1523293279040,-3.0748858,0.18429075,-2.4951158
1523293279048,-2.8005803,0.70840085,-2.1968417
1523293279053,-2.2935145,-0.18642128,-2.3427827
1523293279092,-1.9960393,-1.7251958,-2.248507
1523293279101,-1.5044197,-2.722816,-1.8117485
1523293279139,-0.89642006,-2.6237464,-1.0394318
1523293279149,-0.22077605,-2.172607,-0.4644553
1523293279188,0.38615838,-1.419465,0.08468852
1523293279195,1.4173343,-0.7861652,0.68203557
1523293279261,2.6282737,-0.7025419,0.7318367
1523293279270,1.0599382,-0.056459017,0.17097494
1523293279308,-0.09081379,-1.427987,-0.9387643
1523293279315,-0.027963191,-0.8452873,-1.2154667
1523293279357,0.6151902,-0.74302197,-0.9158611
1523293279365,-0.37790257,1.310808,-0.45460162
1523293279403,0.15313177,1.4168017,0.60560286
1523293279412,-0.33848777,0.42397526,0.21944448
1523293279450,-0.44900897,2.2540996,1.0687265
1523293279457,1.9033613,5.0653324,1.4498249
1523293279520,1.259409,0.91133374,2.078331
1523293279527,1.1837751,0.47510794,1.2926984
1523293279534,1.5057513,0.9736517,1.2040151
1523293279573,1.4351776,1.3182647,1.7765948
1523293279578,1.4919028,1.077515,1.8588865
1523293279620,1.68152,1.0221212,1.5419703
1523293279625,1.5875103,1.139833,1.5182681
1523293279666,1.4737934,0.79681784,1.6010925
1523293279672,1.649562,0.2796319,1.6263925
1523293279732,1.4524881,0.31052458,1.4916365
1523293279738,0.69748193,0.69668293,0.76912093
1523293279787,0.5944176,0.8447547,0.62557656
1523293279792,0.016511599,0.46711847,1.0133328
1523293279834,-0.17976338,0.37923414,0.8673916
1523293279837,-0.63702816,0.8005462,-0.25646242
1523293279879,-1.6570189,0.8926916,-0.9291769
1523293279884,-2.2815301,0.29827404,-1.6306536
1523293279946,-1.6828516,-0.81439465,-2.202168
1523293279950,-2.1161478,-2.1497037,-2.5840652
1523293279988,-2.7694213,-0.95447695,-2.5023062
1523293280008,-2.7276096,-0.396811,-2.1813953
1523293280058,-2.4900556,0.51931643,-1.9616845
1523293280064,-1.9760655,-0.099069595,-2.3363912
1523293280069,-1.5480956,-1.3864417,-2.55264
1523293280111,-1.2263857,-2.7419908,-2.1640847
1523293280115,-0.7209177,-2.7718182,-1.3483585
1523293280123,-0.26977822,-2.0554278,-0.8072041
1523293280162,0.06338324,-1.8397117,-0.23755397
1523293280174,0.8181231,-1.5488945,0.34967306
1523293280213,2.1672804,-0.80107886,0.80134517
1523293280223,2.4876587,-0.21891184,0.70493877
1523293280286,0.67058396,0.5816344,-0.023702133
1523293280291,-0.020772656,-1.427987,-0.85301054
1523293280332,0.32037827,-0.6103965,-1.3499564
1523293280338,0.7435546,-0.892159,-0.49960902
1523293280383,-0.18908444,2.251969,0.021837922
1523293280389,1.4508902,0.5118596,1.7736653
1523293280429,-0.4079963,-0.034621093,-0.18429075
1523293280436,-0.16192019,3.0013826,0.6412892
1523293280478,2.415487,4.6669235,1.2506205
1523293280499,1.2141352,0.09427591,2.1435783
1523293280567,1.1470236,0.31957933,1.417068
1523293280572,1.5587482,0.9827065,1.202151
1523293280576,1.6122777,1.4732608,1.5334482
1523293280621,1.6711336,1.2543489,1.3406353
1523293280626,1.6692694,1.3246564,1.220793
1523293280664,1.6631441,1.2373047,1.2391689
1523293280673,1.5531555,0.47137952,1.3222595
1523293280709,1.5195998,0.14966966,1.4138722
1523293280712,0.5733786,0.6173208,1.1251856
1523293280767,0.6599313,0.86606,0.76565886
1523293280773,0.040213734,0.57364494,0.932639
1523293280816,-0.040746365,0.18961707,0.92092115
1523293280821,-0.5603291,0.61572284,-0.21944448
1523293280863,-1.2439625,0.7185209,-1.031176
1523293280871,-2.144111,0.2066613,-1.8801918
1523293280911,-1.562743,-0.8724516,-2.5547705
1523293280918,-2.328668,-1.4040185,-2.417085
1523293280972,-2.8692899,-0.78936094,-2.5859294
1523293280978,-2.8708878,-0.4612595,-2.459962
1523293280985,-2.646916,0.7036072,-2.303368
1523293281038,-2.0977721,-0.33768883,-2.5790052
1523293281044,-1.769138,-1.6634104,-2.6245453
1523293281099,-1.511344,-2.9603698,-2.196309
1523293281106,-1.0391655,-3.0924628,-1.3148026
1523293281109,-0.5289038,-2.505502,-0.6213155
1523293281150,0.09960223,-2.095908,0.034621093
1523293281156,1.096956,-1.3065468,0.6383597
1523293281199,2.1797974,-0.79628515,0.7861652
1523293281203,1.5933694,0.42557314,0.19307919
1523293281300,0.6111955,-0.7121293,-0.29667616
1523293281308,0.3054646,-0.7254451,-0.22423817
1523293281313,0.84368944,-1.087635,-0.73130405
1523293281333,-0.26205507,1.0199907,-0.9800433
1523293281395,0.7355651,2.604039,-0.23116238
1523293281402,-0.096939065,-1.2362394,0.8085357
1523293281408,-0.24367924,3.3364084,1.412008
1523293281414,1.4713966,3.6511939,1.938515
1523293281481,1.2255868,0.6498113,2.02853
1523293281485,1.4373081,0.8213189,1.1819109
1523293281489,1.5965651,0.72011876,1.2532836
1523293281534,1.562743,0.43409526,1.7212011
1523293281537,1.6008261,0.61572284,1.6405072
1523293281586,1.769138,1.2564794,1.5592809
1523293281630,1.6570189,1.4929681,1.4370418
1523293281636,1.8319886,1.0104034,1.4365091
1523293281640,1.6543556,0.3121225,1.5361114
1523293281675,1.1829761,0.61572284,1.3558153
1523293281683,0.55100805,1.0615361,0.8700547
1523293281721,0.32117724,1.0700581,0.7768441
1523293281729,-0.26764768,0.8426242,1.1046792
1523293281770,0.0063915867,0.34194988,0.8908274
1523293281781,-0.21438447,0.35473305,-0.026631612
1523293281821,-0.8375642,-0.010120012,-0.64102286
1523293281837,-1.6737968,-0.1784318,-1.5017565
1523293281887,-1.4173343,-0.4063984,-2.4535704
1523293281897,-1.7662084,-1.4487597,-2.5691516
1523293281935,-2.396845,-0.6034723,-2.758236
1523293281944,-2.4860609,0.16937704,-2.7190876
1523293281997,-2.2919164,0.9262474,-2.4362597
1523293282003,-1.9110844,0.28176245,-2.6828685
1523293282010,-1.5584819,-0.6940198,-2.7385285
1523293282050,-1.3259879,-2.088451,-2.2245386
1523293282059,-1.0538129,-3.0189595,-1.6719326
1523293282111,-0.6985472,-2.97049,-1.0788466
1523293282119,0.023435818,-2.67914,-0.38296258
1523293282163,0.6245113,-2.1385183,0.086020105
1523293282173,1.9006981,-1.2234563,0.8082694
1523293282179,2.7462518,-0.26844665,1.1270498
1523293282220,1.499626,1.1968247,1.036236
1523293282228,-0.47857004,-1.4498249,-0.111852765
1523293282262,-0.035153728,-1.9851203,-1.1528825
1523293282271,0.5422196,-0.7952199,-1.1022824
1523293282311,-0.9672601,0.4612595,-0.57098174
1523293282320,1.5310514,1.8849854,1.0530139
1523293282356,-0.009321064,-1.3646038,-0.21678132
1523293282377,-0.7765778,2.7063043,0.6897587
1523293282423,2.2897859,5.1478906,1.4575481
1523293282432,1.078314,0.5091964,2.7659593
1523293282439,0.9262474,0.68389976,1.4889734
1523293282478,1.4575481,1.2820457,1.2500879
1523293282481,1.5339808,1.0386329,1.6823189
1523293282527,1.6732641,0.90281165,1.5920377
1523293282531,1.7326527,1.3086774,1.376588
1523293282577,1.5656724,1.2026836,1.2703278
1523293282581,1.5675366,0.13741912,1.4010891
1523293282627,1.8074875,-0.020240024,1.6663399
1523293282647,0.6956177,0.36591834,1.4138722
1523293282702,0.613326,1.081776,0.7488809
1523293282706,-0.06098639,1.0178602,0.7483483
1523293282745,-0.18429075,0.50600064,0.94302535
1523293282752,-0.40293628,0.5134575,-0.1371528
1523293282791,-0.9187906,0.44581318,-1.0034791
1523293282796,-2.0010993,0.31158987,-1.8604844
1523293282831,-1.5901735,-0.65673554,-2.57288
1523293282837,-1.9558256,-1.464206,-2.3856597
1523293282870,-2.503904,-0.64341974,-2.6692865
1523293282883,-2.6312032,0.009054748,-2.7116306
1523293282926,-2.2634206,0.15286545,-2.1744711
1523293282962,-1.7595506,-0.60560286,-2.480202
1523293282966,-1.5278555,-1.7773937,-2.283927
1523293283002,-1.1813782,-2.7723508,-1.860218
1523293283013,-0.6926882,-2.7856665,-1.0021476
1523293283043,0.01304949,-2.8623655,-0.31984565
1523293283078,0.63409865,-1.9185413,0.35579833
1523293283112,1.8716697,-0.89855057,0.94488955
1523293283116,2.4402544,-0.55340487,0.9302422
1523293283168,0.94142747,0.7355651,0.47191215
1523293283174,-0.060720075,-1.3145363,-0.60427123
1523293283204,-0.13448964,0.51984906,-0.5211806
1523293283214,0.28788772,-0.5571333,-0.023702133
1523293283248,-0.7187872,2.0266657,-0.31372038
1523293283281,1.2066783,1.649562,1.135572
1523293283315,-0.5584649,-0.08362326,0.31478566
1523293283318,-0.1438107,3.7476003,0.9054748
1523293283354,2.3600934,3.1899345,1.520665
1523293283392,1.2918994,0.075101145,1.9379823
1523293283407,1.4724618,0.23915187,1.0410297
1523293283448,1.7608821,1.1707256,1.3424995
1523293283455,1.695901,1.1403656,1.8540928
1523293283492,1.639442,1.0391655,1.5454324
1523293283498,1.8149443,1.2181299,1.3158679
1523293283540,1.8271948,0.57790595,1.3789848
1523293283545,1.5819178,0.267914,1.4165354
1523293283581,1.0610034,0.6173208,1.3622069
1523293283589,0.5478122,1.0407634,0.77577883
1523293283627,0.25033715,1.1105382,0.61172813
1523293283673,-0.35446674,0.80587256,0.79681784
1523293283687,-0.3920173,0.80587256,0.5550028
1523293283721,-1.1416972,1.1472899,-0.07403588
1523293283727,-2.3494408,1.3182647,-0.66206187
1523293283759,-3.1904671,1.5520903,-1.5760587
1523293283792,-2.415487,0.9960223,-2.324407
1523293283796,-1.627724,-0.63702816,-2.3273365
1523293283839,-2.0271983,-1.1243867,-3.0376017
1523293283843,-2.1893847,-0.64821345,-2.7547739
1523293283877,-1.9481024,0.1123854,-2.004295
1523293283909,-1.794438,-0.09374327,-2.133192
1523293283956,-1.4407701,-1.496164,-2.448244
1523293283960,-1.1385014,-2.2093585,-2.3121564
1523293284002,-0.6378271,-2.2871227,-1.8013622
1523293284007,0.002396845,-2.2237396,-1.0274476
1523293284040,0.69801456,-1.8221349,-0.3153183
1523293284044,1.582983,-1.7193369,0.23009712
1523293284084,2.7417245,-1.4998924,0.6154565
1523293284091,2.331065,-0.67005134,0.5723133
1523293284126,0.9214538,-0.6679208,0.24607609
1523293284133,0.34301516,-1.8327875,-0.49454904
1523293284175,0.082558,-0.6743124,-0.9606022
1523293284222,0.19600865,-0.6764429,-0.5222459
1523293284229,-0.2396845,2.1363878,-0.090281166
1523293284271,0.60293967,1.1973573,0.10279802
1523293284277,-0.6103965,-0.22796659,0.6154565
1523293284311,0.36432046,5.148956,1.1084076
1523293284315,2.036253,3.6693034,1.8924423
1523293284357,1.5017565,-0.25300032,1.8540928
1523293284396,1.4908376,-0.21252026,0.94941694
1523293284399,1.7094831,0.49694586,1.2128036
1523293284446,1.6266588,1.0950918,1.8178738
1523293284450,1.5680692,1.0242518,1.5744609
1523293284494,1.5741946,1.2532836,1.3885722
1523293284499,1.5614114,1.1190603,1.2769858
1523293284543,1.6490294,0.46232477,1.4583471
1523293284546,1.7984327,0.1470065,1.5888419
1523293284587,0.74914724,0.69668293,1.1536814
1523293284592,0.5363607,1.2378373,0.6737798
1523293284630,-0.257794,0.95447695,0.87165266
1523293284634,-0.23835292,0.52144694,0.82557994
1523293284674,-0.74914724,0.66632295,-0.11717909
1523293284681,-1.1030813,0.2828277,-1.0727214
1523293284743,-1.8876486,0.4079963,-1.9880497
1523293284752,-1.3938985,-1.3454291,-2.4612935
1523293284794,-2.036253,-1.3741912,-2.3608923
1523293284798,-2.4865935,-0.60773337,-2.8016455
1523293284804,-2.6013758,-0.49481535,-2.6751454
1523293284841,-2.5933864,0.38775626,-2.1505027
1523293284845,-2.3510387,0.38562572,-2.2394521
1523293284886,-1.9387813,-0.82398206,-2.4386566
1523293284927,-1.6868463,-2.267948,-2.2322617
1523293284932,-1.196292,-3.0567763,-1.6844494
1523293284965,-0.5499428,-2.808037,-1.0178602
1523293285017,0.07669904,-2.4719462,-0.38402784
1523293285021,0.9254485,-1.716141,0.26711506
1523293285056,2.3643544,-0.98750013,0.7781757
1523293285060,2.2250712,0.046871636,0.5390238
1523293285098,0.4082626,-0.5486112,0.042876896
1523293285132,0.07962852,-1.3171995,-0.84688526
1523293285136,0.13209279,-0.5704491,-1.0335728
1523293285178,-0.42024684,-0.76592517,-0.48016796
1523293285185,-0.56938386,2.2178805,-0.075101145
1523293285217,0.6359629,0.17949706,0.5318333
1523293285249,-0.30812773,1.8407769,1.1824435
1523293285261,2.0357203,4.85441,1.6258599
1523293285305,1.6402409,0.9491506,2.0005667
1523293285308,1.3025521,0.20772657,1.1566108
1523293285343,1.5536882,0.8772453,1.1685951
1523293285372,1.6008261,1.1105382,1.9110844
1523293285414,1.6064188,1.1685951,1.8005632
1523293285419,1.7291905,1.3672669,1.485245
1523293285459,1.6325178,1.3725933,1.315069
1523293285533,1.4940335,0.5832323,1.3739249
