timestamp,acc_x,acc_y,acc_z
1523256456806,-1.2144588,-11.957242,1.0360907
1523256456814,1.8752584,-13.46918,0.10474633
1523256456823,2.8832173,-11.343728,-0.29149407
1523256456832,1.7723078,-9.544485,-0.6171055
1523256456846,1.4622587,-8.959103,-0.34476504
1523256456848,0.5351041,-7.5985975,-0.5506664
1523256456855,0.50876784,-7.469909,-0.8074445
1523256456863,0.62967503,-7.3567834,-1.027711
1523256456870,0.80924016,-6.903082,-0.4914099
1523256456891,1.4981717,-6.5762734,-0.0796072
1523256456915,2.3570917,-7.313688,-0.29867667
1523256456941,3.515885,-8.096592,-0.8900445
1523256456968,3.5847185,-8.4347725,-0.96187055
1523256456994,3.5673606,-11.143812,-2.0518308
1523256457022,1.9782091,-13.331513,-3.269881
1523256457049,0.41838676,-14.42746,-1.0767922
1523256457073,-1.3054385,-14.5759,-0.3286042
1523256457098,-3.6128504,-14.990695,-4.305373
1523256457124,-1.6436194,-13.294403,-3.719991
1523256457149,2.3199813,-13.243526,-1.9847932
1523256457174,2.9831753,-14.240113,-0.6099229
1523256457201,0.5955577,-13.100473,-2.2870612
1523256457222,-0.7338228,-11.171944,-1.9829975
1523256457247,0.8283938,-9.968259,-3.394978
1523256457273,1.5981296,-9.126099,-2.585738
1523256457300,1.0989386,-8.988432,-0.24001873
1523256457324,1.8495208,-8.236652,0.41718966
1523256457349,2.4384944,-5.3265004,-1.3676877
1523256457377,2.0470424,-4.192846,-1.0953473
1523256457401,1.8974048,-3.3267434,-1.3395559
1523256457426,0.64463884,-2.7575219,-1.8375498
1523256457452,2.5623944,-1.4760253,-2.8526914
1523256457479,5.309142,-2.794632,-2.7395654
1523256457506,6.692991,-4.6351743,-2.7497406
1523256457532,3.6487634,-2.2505496,-2.7509377
1523256457558,4.6621094,-14.353838,-3.2531216
1523256457583,2.6437972,-19.6133,-2.9861681
1523256457608,4.9182887,-12.976573,-2.8245595
1523256457633,1.7262194,-6.9623384,-0.88286185
1523256457659,-0.02633622,-10.011354,-0.41359833
1523256457686,0.050876785,-14.916475,-0.6500258
1523256457711,2.959832,-13.101071,-0.15981296
1523256457735,3.8498764,-9.440337,-0.34117374
1523256457762,2.697667,-7.993641,-0.46627077
1523256457778,2.0841527,-8.607754,-0.7673417
1523256457803,1.3377602,-8.924387,-1.2144588
1523256457826,0.6853402,-7.5429325,-1.2395979
1523256457852,0.7254431,-6.2704144,-1.1941081
1523256457877,1.3192052,-5.934029,-0.023942016
1523256457903,2.4528596,-6.384139,-0.11791443
1523256457919,3.1370027,-7.193379,-0.7697359
1523256457944,4.136582,-8.839393,-0.7667431
1523256457969,2.4594438,-8.761581,-0.59855044
1523256457993,1.5807717,-10.54167,-2.5061307
1523256458023,2.9879637,-13.637373,-3.5565867
1523256458044,2.0326772,-14.809335,-0.96067345
1523256458070,0.0676362,-14.423868,-1.6226702
1523256458094,-3.3010056,-14.159907,-3.9486372
1523256458120,-3.2782607,-13.876195,-5.0822916
1523256458145,1.2838906,-13.7086,-2.15538
1523256458170,3.5152867,-13.859435,-0.51834464
1523256458197,2.2703018,-12.045827,-2.979584
1523256458224,-0.10474633,-10.545261,-3.3357215
1523256458249,-0.09995792,-9.066842,-5.251083
1523256458274,0.44472298,-8.845378,0.6194997
1523256458298,1.7489643,-8.985439,-0.1604115
1523256458325,2.4797945,-6.427833,-0.87927055
1523256458349,3.8043866,-5.1762643,-0.51116204
1523256458371,2.710835,-2.267309,-1.6585833
1523256458396,1.3281834,-1.6729485,-2.2577322
1523256458422,2.705448,-0.7745243,-2.8125885
1523256458447,5.928642,-2.991555,-2.6725276
1523256458472,6.045958,-4.717176,-3.0663738
1523256458497,4.984728,-3.6607344,-3.1878796
1523256458525,3.5817258,-10.720636,-6.83365
1523256458552,5.0721164,-19.6133,-1.9662381
1523256458574,3.8349125,-11.9614315,-2.3529017
1523256458600,0.17836803,-6.154894,-2.8281507
1523256458624,-1.0079589,-10.754155,-0.908001
1523256458649,0.073023155,-15.764023,-0.16280572
1523256458674,2.8820202,-14.378378,-0.15502456
1523256458700,4.332308,-10.887632,0.0700304
1523256458727,2.8000188,-7.9266033,-0.46028528
1523256458751,1.4730326,-7.889493,-0.6775591
1523256458777,0.93613285,-7.3603745,-1.4095862
1523256458802,0.75118077,-5.921459,-1.6214731
1523256458831,1.4077905,-5.7670336,-0.44472298
1523256458853,1.9949685,-6.1806316,-0.53689975
1523256458880,3.2148144,-7.1766195,-0.52073884
1523256458904,4.44723,-7.429208,-0.52373165
1523256458930,4.211401,-8.953716,-0.6123171
1523256458958,2.6150668,-11.039664,-1.3982137
1523256458985,2.9167361,-12.563574,-3.4638114
1523256459012,1.3760674,-15.921441,-2.1589713
1523256459041,-0.17238252,-16.976686,-1.4634558
1523256459084,-2.8748376,-15.105019,-3.8391025
1523256459107,-1.5478514,-13.936049,-2.9622262
1523256459127,2.9113493,-14.664485,-1.3227965
1523256459162,2.6737247,-14.333487,-2.9029696
1523256459174,0.2885013,-11.6908865,-4.32333
1523256459198,0.30226797,-9.391854,-1.9141643
1523256459213,1.2880806,-8.829217,-2.5276785
1523256459241,1.7848774,-8.590994,-0.15741876
1523256459268,2.285864,-7.3364325,0.33638534
1523256459295,4.1216183,-4.9428296,-1.0307038
1523256459320,1.8866309,-1.0289081,-1.4443022
1523256459346,-0.02633622,-0.6218939,-1.7016789
1523256459370,-0.21308395,-0.8678981,-1.5514427
1523256459394,3.0621839,-1.7561469,-2.2822728
1523256459419,4.663905,-3.9270895,-3.989937
1523256459443,5.3043537,-6.1638722,-3.1010897
1523256459472,6.4589577,-3.198055,-3.445855
1523256459497,2.4654293,-2.529474,-8.41921
1523256459516,7.517793,-15.574881,-4.9799395
1523256459537,6.3500214,-19.6133,-1.5101427
1523256459564,4.357447,-8.815451,-3.7547069
1523256459589,-2.6880898,-3.9653966,-2.9149406
1523256459615,-2.179322,-10.266935,-1.2234371
1523256459639,0.6135142,-16.936583,-0.350152
1523256459664,3.1358056,-14.108432,0.022146367
1523256459689,3.4033577,-9.911995,-0.49440265
1523256459714,3.1453824,-8.66282,0.025139118
1523256459739,2.7473464,-8.104373,-0.19393034
1523256459767,1.9500773,-6.7606273,0.61770403
1523256459782,0.46267948,-6.4206505,0.15622166
1523256459808,0.700304,-6.9491706,-0.12330139
1523256459832,1.3862427,-6.8611836,-0.20530279
1523256459856,1.5837644,-6.777985,-0.32202014
1523256459881,2.7455509,-7.025785,-0.4189853
1523256459907,4.096479,-8.463503,-0.63206923
1523256459931,2.31639,-8.316858,-1.0516531
1523256459956,2.3654714,-7.736264,-2.556409
1523256459981,4.4903255,-9.051878,-1.2898762
1523256460006,3.0041246,-10.542868,-1.5526398
1523256460033,1.7052702,-13.6092415,-2.8670566
1523256460081,0.90740246,-13.546991,-2.8203697
1523256460087,2.8670566,-12.787432,0.60333884
1523256460108,2.677316,-11.549629,-2.0458453
1523256460135,-1.673547,-11.85489,-3.2052376
1523256460162,-2.0991163,-11.440693,-3.555988
1523256460188,-0.32800564,-11.464635,-3.4955344
1523256460215,1.3916297,-11.786655,-3.2082303
1523256460240,3.1196449,-11.638813,-2.5582044
1523256460267,3.6685154,-10.162787,-6.8863225
1523256460300,-2.6563668,-10.971429,-1.6903064
1523256460325,-2.3397336,-10.456676,-2.0913353
1523256460350,0.99060094,-10.827179,-4.3023806
1523256460393,2.983774,-8.655638,-1.8459295
1523256460408,3.1136594,-6.68102,-1.5903485
1523256460426,2.6940753,-6.3667808,-2.344522
1523256460444,2.219425,-5.9412117,-2.3780408
1523256460467,1.216853,-3.582923,-2.2511482
1523256460492,0.19692309,-3.0496144,-1.4820108
1523256460517,0.28670564,-3.1070752,-3.371036
1523256460542,0.82001406,-4.2036195,-4.2383356
1523256460566,1.6460136,-4.423288,-4.050989
1523256460589,3.2243912,-4.654328,-4.2700586
1523256460614,4.6279917,-7.4854717,-5.7963624
1523256460642,5.2822075,-9.516354,-7.211934
1523256460667,3.9965212,-9.645041,-5.988497
1523256460692,3.0544028,-10.916962,-6.005256
1523256460716,0.089184016,-15.405491,-4.545392
1523256460743,-5.282806,-11.950658,0.6805518
1523256460770,-6.245275,-7.6614456,-5.2343235
1523256460794,-0.8702923,-12.162544,-1.5861586
1523256460819,0.23163901,-15.198392,-0.6147113
1523256460844,-1.4993688,-11.128848,0.50397944
1523256460868,-0.5590461,-10.1382475,2.7635074
1523256460893,1.6059108,-10.19092,1.9393034
1523256460917,1.9470845,-10.017939,0.038307227
1523256460942,2.1942859,-9.791686,0.34715924
1523256460969,2.7204118,-8.980052,1.6424223
1523256460993,3.6242228,-8.812458,-0.6727707
1523256461022,2.914342,-8.973468,-1.3120226
1523256461046,3.265691,-7.657854,-0.6667852
1523256461073,5.2983685,-7.9547353,-1.1049241
1523256461099,5.2528787,-8.090606,-0.8655039
1523256461125,4.706402,-8.828619,-2.2990322
1523256461150,3.8953662,-10.280104,-3.1352072
1523256461183,3.6739025,-11.568783,-3.4398694
1523256461209,3.1429882,-12.302007,-3.7098155
1523256461255,2.3127987,-13.712192,-0.760159
1523256461267,0.15502456,-14.857818,-0.6356605
1523256461274,-2.3708582,-16.980875,-6.939594
1523256461293,-1.1779473,-15.2097645,-3.0071173
1523256461322,2.8874073,-13.5457945,-0.18734628
1523256461340,2.5570073,-13.013683,-5.139154
1523256461367,-0.31783026,-12.059594,-4.369418
1523256461393,-1.091756,-9.864111,0.3405752
1523256461419,3.4129345,-8.962694,-0.86490536
1523256461447,3.6212301,-7.4375877,0.8355764
1523256461472,4.4484267,-4.4184995,-0.86610246
1523256461498,3.6535518,-4.2754455,-1.5155296
1523256461522,2.1086931,-4.068946,-2.460641
1523256461547,0.81402856,-2.747945,-3.2136173
1523256461572,2.6982653,-0.7954735,-2.4366987
1523256461597,6.0597243,-2.3678656,-3.2070332
1523256461622,6.4386067,-2.7910407,-2.7455509
1523256461650,6.793547,-4.485537,-0.40043023
1523256461677,2.9921536,-6.339846,-5.34326
1523256461705,4.0120835,-19.6133,-3.3800142
1523256461730,5.241506,-14.942213,-1.1492168
1523256461754,0.52971715,-7.187992,-1.3192052
1523256461779,-1.6106992,-9.5570545,-0.39803603
1523256461805,0.026934769,-13.772645,0.31364042
1523256461830,4.3041763,-13.820529,0.23104046
1523256461855,4.8739963,-9.633071,0.5291186
1523256461880,3.8630445,-6.7187285,0.47046062
1523256461906,2.8060043,-6.9886746,0.14903906
1523256461936,2.2343888,-7.2867527,-0.08559271
1523256461949,1.2042835,-7.2490444,-0.6835446
1523256461973,0.6242881,-6.7133417,-1.934515
1523256462000,0.748188,-6.4787097,-0.8050503
1523256462029,2.0266917,-7.229292,-0.022146367
1523256462056,2.6168625,-7.5213847,-0.007182605
1523256462080,3.6984432,-8.844181,-0.75956047
1523256462106,3.7421372,-11.649587,-1.894412
1523256462130,2.9167361,-14.044986,-3.5847185
1523256462155,1.9303252,-15.455171,-2.9460652
1523256462180,0.41718966,-16.533758,-3.1603463
1523256462203,-1.9722236,-15.450382,-7.33763
1523256462236,1.477821,-12.81676,-5.872977
1523256462269,5.57849,-12.655151,-2.3247697
1523256462316,3.217807,-12.549807,-2.919729
1523256462347,0.86370826,-11.679515,-3.2387564
1523256462374,1.3880384,-10.283096,-3.482965
1523256462379,2.2349873,-9.661202,-7.264008
1523256462389,-3.5643678,-4.3101616,0.8948329
1523256462410,0.01436521,-5.2079873,-0.6859388
1523256462435,2.8886044,-7.3950906,-3.328539
1523256462457,2.8203697,-4.43885,-1.8369513
1523256462486,3.3207579,-2.8119898,-2.4540567
1523256462504,3.1836896,-1.8309658,-1.8459295
1523256462533,5.1583076,-1.0516531,-2.2176294
1523256462565,5.5922565,-3.3985693,-3.145981
1523256462630,4.64535,-2.4522612,-3.5757403
1523256462636,1.3000516,-2.5965118,-3.9677908
1523256462672,6.9689226,-19.6133,-0.7649474
1523256462690,4.03004,-19.6133,-3.0202854
1523256462703,3.2130187,-8.661623,-3.12982
1523256462722,-0.8655039,-5.876568,-0.45250413
1523256462736,-1.9009962,-12.093113,-0.3369839
1523256462760,0.90620536,-14.6998,-0.41240123
1523256462788,3.6134489,-11.608287,-0.46507367
1523256462817,2.255338,-8.3821,-0.4357447
1523256462836,1.407192,-7.3986816,-0.044891283
1523256462856,1.412579,-6.9000893,-0.1316811
1523256462882,2.48578,-6.749853,-0.46806642
1523256462904,2.9945478,-6.851008,-0.1921347
1523256462933,1.6382325,-6.0172276,-0.40402153
1523256462956,2.0620062,-6.4164605,0.21787235
1523256462993,2.4953568,-7.5267715,0.29269117
1523256463016,3.4763808,-9.80665,-0.62009823
1523256463028,4.276643,-10.705673,-0.9504981
1523256463057,4.216788,-11.510124,-1.2557588
1523256463095,4.2796354,-12.640188,-2.2062569
1523256463113,2.9801826,-14.334085,-3.3877954
1523256463138,2.8365304,-15.195399,0.5859809
1523256463152,0.9756372,-15.075091,-0.3788824
1523256463191,-1.7968484,-15.507244,-2.5821466
1523256463224,-3.168726,-15.320497,-4.179079
1523256463249,3.3441012,-13.36204,0.9307459
1523256463273,3.0621839,-13.182474,-2.9813797
1523256463286,3.117849,-11.982381,-2.7263973
1523256463301,2.2056582,-10.824784,-2.8060043
1523256463310,0.05686229,-7.7201033,0.18136078
1523256463325,0.8972271,-7.303512,0.023942016
1523256463345,1.3281834,-5.8424506,-1.8028339
1523256463357,2.5659857,-4.091092,-0.035913024
1523256463458,3.05141,-2.0679917,-1.7525556
1523256463475,1.483208,-0.830788,-2.4079683
1523256463507,2.4821887,-1.3389573,-2.582745
1523256463537,5.34326,-3.7235823,-3.1531637
1523256463560,6.0405707,-3.3836055,-3.3572693
1523256463576,4.124611,-2.9562407,-2.5462334
1523256463643,2.3493104,-3.9707835,-5.468955
1523256463660,6.132149,-12.727576,-3.888782
1523256463684,5.2504845,-19.6133,-2.8167782
1523256463691,5.006874,-7.8248496,-2.767697
1523256463698,-1.2743138,-4.723161,-0.6919243
1523256463707,-2.4498668,-12.227787,-0.24600422
1523256463714,1.5113398,-15.482704,0.54527944
1523256463721,5.0014873,-11.932103,0.32800564
1523256463726,3.9085343,-8.024167,-0.1448492
1523256463738,1.721431,-7.769783,-0.47884035
1523256463768,1.2270284,-7.849989,-0.5967548
1523256463792,1.7340006,-7.390302,-0.80804306
1523256463808,1.875857,-6.880337,-0.64823014
1523256463835,1.5143325,-6.0064535,0.11971009
1523256463862,1.8339585,-6.7444663,0.16998832
1523256463877,2.1134815,-7.9744873,0.050278235
1523256463904,2.8323407,-9.390059,-1.1312603
1523256463932,4.815338,-10.5045595,-1.3928268
1523256463947,5.0403934,-11.25215,-1.364695
1523256463974,4.5124717,-12.729372,-2.9233203
1523256464003,2.5594015,-13.096283,-0.8774749
1523256464018,1.7651252,-13.785214,-0.5650316
1523256464035,0.28191724,-15.070901,-2.878429
1523256464065,-1.5939398,-15.416863,-4.6806645
1523256464087,-1.353921,-14.194623,-2.7629087
1523256464114,2.7808652,-13.27944,1.2617443
1523256464141,2.111686,-13.261483,-2.8281507
1523256464168,0.6440403,-12.761095,-3.7780502
1523256464196,-1.6681601,-10.337564,-2.4049757
1523256464214,-1.8064252,-7.9756846,2.6874914
1523256464247,0.7835025,-7.796119,0.641646
1523256464284,1.3838485,-5.3384714,-0.7152678
1523256464290,1.757344,-4.4280763,0.374094
1523256464317,2.369661,-3.6709096,-1.3323733
1523256464344,0.9528923,-2.2278047,-2.5025394
1523256464379,2.7204118,-1.2695254,-3.2998085
1523256464425,6.482301,-3.2902317,-3.229778
1523256464478,6.7761893,-2.9640217,-2.7539306
1523256464482,4.894945,-1.7304093,-3.8630445
1523256464526,4.9063177,-19.6133,1.1779473
1523256464529,8.683769,-15.031996,-3.5817258
1523256464579,0.5734113,-4.753089,-0.62009823
1523256464617,-0.85054016,-9.493608,-0.39324763
1523256464643,-0.15682021,-15.056536,-0.6512229
1523256464668,3.205836,-13.113641,0.05626374
1523256464719,4.3783965,-10.353127,-0.3441665
1523256464747,3.8540661,-8.197746,-0.15382746
1523256464762,1.882441,-8.125322,-0.7966706
1523256464797,0.8619126,-7.766192,-0.8678981
1523256464813,1.2132617,-6.7079544,-0.8571242
1523256464830,1.508347,-6.0585275,-0.3645172
1523256464851,2.1362264,-6.2249246,0.24361002
1523256464872,3.675698,-7.4441714,-0.29628247
1523256464885,4.620809,-8.806473,-1.1013328
1523256464914,4.7925935,-9.900622,-0.88286185
1523256464921,4.0695443,-10.835558,-0.82779527
1523256464936,3.2770636,-13.204022,-2.5133133
1523256464955,0.81043726,-16.16924,-0.6865373
1523256464977,-0.6781576,-17.291523,-3.1693244
1523256464998,-2.722806,-15.404294,-3.870227
1523256465026,-0.84335756,-13.764864,-1.2156559
1523256465045,2.1505916,-13.35366,-0.6817489
1523256465068,3.8576574,-13.795989,-0.6099229
1523256465098,1.8004397,-12.927492,-3.8786068
1523256465123,-1.453879,-10.441113,-1.4407109
1523256465138,-0.1945289,-8.46051,-0.89662856
1523256465165,1.6729485,-7.9631147,0.20649989
1523256465193,1.0809821,-6.779781,-1.6693572
1523256465211,0.4794389,-4.569334,1.2258313
1523256465228,2.380435,-3.8522706,0.52612585
1523256465254,3.0424318,-2.815581,-2.582745
1523256465280,1.6220716,-1.6897079,-2.348712
1523256465307,3.1621418,-1.5221137,-2.4941597
1523256465329,5.6203885,-3.4781766,-2.6833014
1523256465356,6.51582,-3.8863878,-2.2798786
1523256465379,3.7427359,-0.55485624,-3.1890767
1523256465408,2.779668,-3.630807,-7.6608467
1523256465433,5.345055,-19.6133,-1.7112557
1523256465458,7.0874357,-19.6133,-1.2425907
1523256465485,2.3110032,-5.42167,-2.7617116
1523256465512,-0.38367084,-7.2089415,0.34237084
1523256465537,-0.9068039,-13.849858,-0.46208093
1523256465564,2.3157916,-14.833876,-0.35314476
1523256465589,3.7912183,-10.94629,-0.3669114
1523256465611,3.0831332,-7.3549876,-0.1945289
1523256465640,2.3421278,-7.5680714,-1.0672154
1523256465676,2.6683378,-8.207922,-0.830788
1523256465683,2.7383683,-7.259818,-0.8619126
1523256465717,2.7754784,-6.0010667,-0.39683893
1523256465730,1.3587095,-5.969942,-0.33518824
1523256465757,1.4263457,-6.7163343,-0.4285621
1523256465772,2.4486697,-7.590218,-0.32441434
1523256465799,4.1533413,-9.214086,-0.077811554
1523256465826,3.8229415,-9.160215,-0.38845924
1523256465843,4.185663,-9.408015,-0.8463503
1523256465887,3.9324763,-12.306795,-1.8471266
1523256465898,1.2755109,-13.968969,-3.7732618
1523256465913,0.24361002,-14.6602955,-1.9788077
1523256466017,0.516549,-16.021399,-3.6649241
1523256466058,-0.24480712,-15.686211,-4.2491093
1523256466084,-1.7100586,-13.55178,-3.815759
1523256466093,-0.088585466,-11.733982,-4.274847
1523256466115,2.8461072,-12.982558,-2.5540147
1523256466130,0.8002619,-13.51467,-3.1376014
1523256466148,-1.6208745,-12.163742,-5.502474
1523256466172,0.5351041,-10.649409,-2.373851
1523256466188,2.0697873,-10.093356,-2.7048495
1523256466216,0.3286042,-8.64666,-1.5532384
1523256466232,0.31483752,-7.8787193,-2.6862943
1523256466258,0.97264445,-6.779182,-2.7443538
1523256466286,0.20829555,-4.7937903,-2.244564
1523256466302,0.061650693,-2.6737247,-2.232593
1523256466340,0.2657564,-1.6633717,-2.332551
1523256466361,1.3706805,-2.1027076,-2.8496985
1523256466395,3.5003228,-2.9921536,-1.9117701
1523256466405,6.855198,-2.2559366,-3.2387564
1523256466430,8.562862,-1.6124948,-7.318476
1523256466456,7.0024414,-5.04159,-7.889493
1523256466482,3.2387564,-5.3402667,-8.223484
1523256466508,7.265804,-12.695254,-10.955867
1523256466533,4.6285906,-14.814123,0.87328506
1523256466549,2.9406781,-8.094796,-4.11264
1523256466575,-3.5565867,-5.553351,-5.197213
1523256466601,-3.8301241,-9.586982,-3.5757403
1523256466628,-1.2060791,-10.722432,-2.6402059
1523256466645,0.5069722,-10.499173,-1.5245079
1523256466668,2.2242134,-10.658986,-2.11827
